wavelength,relint
27.3695,42000.0
27.4461,20000.0
29.6958,190000.0
30.1741,110000.0
30.433,80000.0
30.491,80000.0
35.798,18000000.0
40.3724,2300000.0
40.9954,1200000.0
43.9691,42000.0
49.0549,2900.0
55.2411,4800.0
56.1959,7000.0
56.2607,3600.0
58.0058,2400.0
58.335,2200.0
58.6547,2000.0
58.7354,15000.0
58.9013,3600.0
59.0987,3400.0
59.1584,8000.0
59.3645,700.0
59.6675,5000.0
59.7291,6000.0
60.0852,2800.0
60.6756,1400.0
61.0225,1300.0
61.6581,1000.0
61.8923,600.0
62.4821,3200.0
62.5269,1000.0
62.8663,6000.0
62.9921,700.0
63.1015,1700.0
63.2017,2900.0
63.3325,1600.0
63.3468,900.0
63.3588,9000.0
63.5481,1600.0
63.6318,1600.0
63.6388,800.0
63.6482,600.0
63.6641,500.0
63.7111,1500.0
63.7788,800.0
63.9124,2600.0
64.028,4100.0
64.6343,3300.0
64.8618,1300.0
65.0842,500.0
65.5342,490.0
66.2981,600.0
67.2249,1900.0
67.5424,500.0
67.762,2600.0
67.9845,500.0
68.0049,1600.0
68.2632,3200.0
68.4018,2500.0
68.4659,900.0
68.5408,4600.0
68.8543,800.0
68.9602,3000.0
68.9708,450.0
69.0963,2300.0
69.1136,3000.0
69.1432,480.0
69.2148,800.0
69.3487,3600.0
69.4154,440.0
69.437,800.0
69.4898,2200.0
69.4994,2200.0
69.5219,1400.0
69.6031,1400.0
69.7551,4200.0
69.869,420.0
69.9085,4100.0
69.9715,470.0
69.9891,4100.0
70.139,12000.0
70.4772,1300.0
70.5426,2600.0
70.8521,800.0
70.9802,380.0
71.3856,800.0
71.4628,700.0
71.6136,410.0
71.6654,400.0
71.6876,400.0
71.7283,1200.0
71.7638,400.0
71.7836,1200.0
71.9124,400.0
72.2382,290.0
72.4762,340.0
72.5956,1100.0
72.7656,11000.0
72.8004,1100.0
73.0474,600.0
73.1215,1700.0
73.2244,1700.0
73.2894,6000.0
73.3096,330.0
73.6239,1000.0
73.6693,11000.0
73.6823,600.0
73.8845,1600.0
74.016,240.0
74.033,1600.0
74.0553,32000.0
74.2541,2500.0
74.2672,2000.0
74.4293,1000.0
74.606,1000.0
74.6248,11000.0
74.7978,2900.0
74.9479,2000.0
76.4699,1400.0
77.0321,260.0
77.2498,1300.0
77.9608,2400.0
77.9902,250.0
78.512,1600.0
78.6159,800.0
79.1051,430.0
79.9529,700.0
80.0301,2200.0
80.055,1800.0
80.0886,220.0
80.3396,1800.0
80.3553,220.0
80.9642,1100.0
80.993,2100.0
81.0434,1400.0
81.0687,1700.0
81.4609,150.0
81.7056,10000.0
81.7223,600.0
81.748,1000.0
81.8321,1600.0
82.0131,1300.0
82.1572,6000.0
82.2432,1300.0
82.588,1500.0
82.6108,1500.0
82.892,1200.0
82.9445,600.0
83.0777,600.0
83.1077,1500.0
83.3141,1200.0
83.5861,600.0
83.6024,900.0
83.6769,1400.0
83.7918,600.0
83.8237,1400.0
83.8501,320.0
84.0317,320.0
84.0558,2100.0
84.7757,500.0
85.566,800.0
85.5978,280.0
85.6791,22000.0
86.4035,900.0
86.447,450.0
86.5629,700.0
86.7545,1100.0
87.0152,250.0
87.4009,240.0
87.5301,240.0
93.8497,280.0
96.6186,190.0
98.4919,600.0
99.5135,70.0
99.7804,220.0
100.2143,120.0
100.5,60.0
100.9546,190.0
101.2125,60.0
101.3715,190.0
101.8302,280.0
101.86,280.0
102.0071,700.0
102.3849,290.0
102.6495,260.0
103.2862,400.0
103.465,470.0
103.5607,150.0
103.6766,310.0
104.0705,240.0
104.4518,45.0
104.9673,280.0
106.0751,130.0
106.4899,130.0
106.7781,70.0
107.4667,37.0
109.9495,110.0
112.4039,160.0
114.5062,150.0
114.8339,150.0
114.9848,190.0
115.2706,150.0
118.1988,190.0
118.7303,290.0
118.8606,1200.0
119.0864,290.0
119.3697,190.0
120.0772,90.0
120.2309,500.0
120.3507,29.0
120.7341,200.0
120.7838,240.0
120.8046,200.0
120.8716,100.0
121.1822,800.0
121.2682,240.0
121.3301,360.0
121.745,100.0
121.8738,100.0
122.2895,250.0
122.3185,700.0
122.5321,250.0
122.5699,460.0
122.8317,250.0
123.0975,600.0
123.44,160.0
123.6114,100.0
123.9863,210.0
123.9976,600.0
124.3008,480.0
125.3464,390.0
125.4413,170.0
125.9209,220.0
126.1381,220.0
126.2653,1100.0
126.9333,34.0
127.0333,800.0
127.2544,180.0
127.3775,180.0
127.8392,1500.0
128.1553,1100.0
128.5908,700.0
128.6523,2000.0
128.8029,190.0
129.3871,900.0
129.8035,2100.0
130.9418,130.0
131.0669,1000.0
131.7699,1700.0
132.8945,1400.0
133.5129,1800.0
133.7466,350.0
135.5415,1100.0
136.001,1500.0
136.2222,390.0
137.8584,500.0
138.5426,2200.0
139.7687,2300.0
142.0067,490.0
145.3157,4900.0
145.9787,3800.0
146.1875,2900.0
146.3335,9000.0
146.5477,800.0
148.0425,1800.0
148.0527,1800.0
148.4869,11000.0
149.6884,4200.0
150.6876,3200.0
152.8866,1900.0
154.5294,22000.0
155.5527,10000.0
156.2473,18000.0
157.1268,6000.0
158.6125,6000.0
159.5193,1900.0
168.4392,130.0
168.877,1700.0
169.8939,1700.0
172.0334,800.0
175.4153,300.0
176.2259,1800.0
177.3241,1000.0
178.3929,1700.0
178.8827,430.0
179.4223,1700.0
179.8246,1300.0
180.0208,2800.0
180.7885,3700.0
181.2153,4700.0
181.3585,2100.0
182.2592,90.0
183.0059,2600.0
183.5072,380.0
184.5775,1100.0
185.109,300.0
186.0432,1400.0
187.0263,4100.0
187.2367,4100.0
187.6915,42.0
189.4124,1300.0
189.4582,400.0
190.7385,1000.0
191.0097,1700.0
191.1692,1000.0
193.8572,250.0
193.9244,700.0
193.9683,1200.0
194.3012,1600.0
194.8257,2000.0
195.1888,240.0
195.2133,900.0
195.2823,290.0
195.3064,900.0
195.3546,1200.0
195.8149,430.0
195.8971,1100.0
196.4614,2600.0
196.7936,2600.0
197.1992,340.0
197.2823,1900.0
197.7013,1100.0
197.8551,1100.0
198.1192,1400.0
198.9512,800.0
199.9663,1400.0
199.9919,600.0
200.0895,1400.0
200.1402,1100.0
200.2987,1100.0
201.4103,1000.0
201.8697,1300.0
202.0772,1000.0
202.605,1000.0
202.6589,470.0
202.7667,470.0
203.3358,1700.0
204.1538,1700.0
204.5803,1300.0
204.6537,1000.0
204.6819,1000.0
204.7193,700.0
204.8293,1000.0
205.6595,1000.0
206.2155,700.0
206.3524,600.0
206.7627,700.0
207.4841,700.0
207.8916,2100.0
209.8497,2100.0
210.7136,700.0
211.4413,3400.0
212.3029,5000.0
212.6812,900.0
212.9191,2600.0
213.3953,2500.0
213.684,180.0
213.9531,400.0
214.0359,1900.0
214.063,210.0
214.3747,600.0
214.9523,48.0
215.2435,4000.0
216.0347,600.0
216.3416,800.0
217.1322,800.0
217.1566,1400.0
217.271,170.0
217.8584,1100.0
218.2014,800.0
218.6263,250.0
219.1209,600.0
219.6169,200.0
220.2404,800.0
220.4315,1000.0
221.9851,1000.0
222.5559,160.0
223.1436,600.0
223.3614,230.0
225.2446,350.0
225.5205,440.0
226.6072,23.0
226.9842,700.0
227.6012,33.0
227.6512,1300.0
228.1468,39.0
228.3683,26.0
229.3639,150.0
230.4948,19.0
230.5413,30.0
231.0294,30.0
231.0796,700.0
231.2076,2700.0
232.9387,32.0
235.1353,700.0
235.9679,5.0
235.9825,6.0
238.795,500.0
239.3164,900.0
240.7527,400.0
243.1082,700.0
243.3325,500.0
244.2551,900.0
247.0292,800.0
247.2541,900.0
249.3517,800.0
249.7736,1500.0
254.1498,3200.0
258.7153,1000.0
259.0411,800.0
262.0817,2500.0
263.4139,2500.0
265.5382,380.0
268.6722,800.0
268.7764,3500.0
270.4859,2500.0
277.1277,1600.0
279.159,2100.0
281.3877,3300.0
286.6538,3500.0
286.9945,5000.0
288.1782,6000.0
289.9785,14000.0
290.7918,1200.0
292.4326,7000.0
298.863,6000.0
298.9274,4200.0
302.8586,3000.0
311.9665,7000.0
323.2734,340.0
336.7786,5000.0
337.2671,10000.0
353.777,2600.0
358.3659,42.0
366.932,7.0
369.0878,120.0
376.1608,1200.0
381.002,9.0
382.3759,150.0
383.3189,39.0
393.087,90.0
394.9604,230.0
403.8508,160.0
407.1362,41.0
408.1766,1000.0
413.6247,390.0
413.7084,47.0
414.7683,30.0
415.3565,500.0
416.431,430.0
417.5652,410.0
418.4201,500.0
420.4611,70.0
420.7235,800.0
421.1609,70.0
421.3144,400.0
423.3737,700.0
424.0742,600.0
425.6626,70.0
427.1896,410.0
427.2723,29.0
427.3881,200.0
427.8209,270.0
427.889,43.0
427.9723,360.0
428.3571,35.0
428.4388,500.0
429.0069,280.0
429.5571,70.0
430.1005,240.0
430.1494,290.0
430.2804,800.0
432.8225,40.0
432.9185,490.0
433.2065,41.0
433.3567,480.0
434.0343,80.0
434.4817,34.0
435.8379,410.0
436.9249,21.0
438.2997,25.0
439.3109,33.0
439.5895,60.0
439.9594,800.0
440.6291,700.0
441.3736,80.0
442.4326,13.0
443.1298,600.0
448.4396,70.0
448.495,150.0
449.5963,19.0
449.9884,1000.0
450.5131,31.0
450.8787,80.0
451.2911,60.0
451.6585,700.0
455.3295,70.0
455.4652,35.0
457.2124,700.0
462.9485,50.0
463.2869,80.0
466.7254,50.0
470.3604,22.0
470.8829,150.0
471.6269,130.0
472.7634,48.0
473.6681,60.0
482.7263,36.0
485.1929,70.0
485.233,36.0
485.9167,90.0
488.9826,70.0
489.9306,43.0
491.9266,70.0
495.0527,70.0
500.8945,90.0
501.4352,50.0
504.6917,60.0
505.0071,80.0
506.3722,60.0
508.3177,38.0
511.298,38.0
513.773,60.0
520.1353,45.0
523.1815,70.0
524.7373,100.0
527.1981,170.0
529.7529,34.0
530.1321,70.0
532.1288,90.0
532.6153,22.0
532.8063,70.0
533.3652,33.0
535.073,41.0
535.4237,41.0
537.547,41.0
545.7799,24.0
548.001,49.0
550.163,30.0
552.0304,37.0
557.0583,80.0
557.9059,60.0
561.3997,10.0
565.0014,22.0
566.3582,27.0
569.4646,34.0
584.8488,11.0
604.6152,37.0
606.9978,110.0
612.0111,36.0
616.0875,14.0
617.3217,45.0
621.3979,80.0
622.5379,26.0
627.9785,33.0
629.4885,60.0
637.0113,60.0
638.7552,42.0
642.4509,70.0
643.1971,32.0
648.5348,70.0
653.8778,40.0
654.2236,40.0
659.9648,30.0
686.512,6.0
688.1475,9.0
694.5506,14.0
706.472,18.0
730.869,39.0
744.6,8.0
754.044,25.0
756.85,20.0
767.898,17.0
769.338,21.0
777.714,15.0
779.46,18.0
781.857,12.0
783.071,38.0
784.306,50.0
784.954,19.0
789.846,90.0
800.481,6.0
805.123,18.0
807.421,23.0
810.365,19.0
811.899,16.0
814.106,11.0
815.407,7.0
818.863,41.0
819.534,21.0
820.861,11.0
823.361,15.0
825.269,12.0
825.983,12.0
863.277,50.0
943.253,180.0
963.88,80.0
